# %ECSV 0.9
# ---
# datatype:
# - {name: wavelength, unit: nm, datatype: float64}
# - {name: response, datatype: float64}
# meta: !!omap
# - {url: 'http://www.ctio.noao.edu/noao/content/dark-energy-camera-decam'}
# - {band_name: r}
# - {airmass: 1.3}
# - {description: 'DECam r-band throughput from a spreadsheet created in 2014 by William
#     Wester.
# 
#     Throughputs include an airmass 1.3 reference atmosphere provided by Ting Li.'}
# - {group_name: decam2014}
wavelength response
333.0 0.0
334.0 0.00032
335.0 0.00031
336.0 0.0003
337.0 0.00028
338.0 0.00027
339.0 0.00026
340.0 0.00024
341.0 0.00023
342.0 0.0002
348.0 0.0002
349.0 0.00019
353.0 0.00019
354.0 0.00018
356.0 0.00018
357.0 0.00017
358.0 0.00017
359.0 0.00016
361.0 0.00016
362.0 0.00015
366.0 0.00015
367.0 0.00014
381.0 0.00014
382.0 0.00016
383.0 0.00018
384.0 0.0002
385.0 0.00022
386.0 0.00024
387.0 0.00026
388.0 0.00028
389.0 0.0003
390.0 0.00032
391.0 0.00034
392.0 0.00033
399.0 0.00033
400.0 0.00032
401.0 0.00034
402.0 0.00035
405.0 0.00035
406.0 0.00036
409.0 0.00036
410.0 0.00037
411.0 0.00037
412.0 0.00038
413.0 0.00039
414.0 0.0004
415.0 0.0004
416.0 0.00041
417.0 0.00042
418.0 0.00043
419.0 0.00044
420.0 0.00045
421.0 0.00046
422.0 0.00044
423.0 0.00043
424.0 0.00042
425.0 0.00041
426.0 0.0004
427.0 0.00039
428.0 0.00038
429.0 0.00037
430.0 0.00036
431.0 0.00044
434.0 0.00044
435.0 0.00043
439.0 0.00043
440.0 0.00042
441.0 0.00039
442.0 0.00037
443.0 0.00035
444.0 0.00033
445.0 0.00031
446.0 0.0003
447.0 0.00028
448.0 0.00026
449.0 0.00024
450.0 0.00022
451.0 0.00023
452.0 0.00022
453.0 0.00022
454.0 0.00021
455.0 0.0002
456.0 0.0002
457.0 0.00019
458.0 0.00018
459.0 0.00018
460.0 0.00017
461.0 0.00016
462.0 0.00016
463.0 0.00015
465.0 0.00015
466.0 0.00014
467.0 0.00014
468.0 0.00013
469.0 0.00013
470.0 0.00012
471.0 0.00013
486.0 0.00013
487.0 0.00012
502.0 0.00012
503.0 0.00013
504.0 0.00014
505.0 0.00014
506.0 0.00015
508.0 0.00015
509.0 0.00016
510.0 0.00017
511.0 0.00017
512.0 0.00018
513.0 0.00019
514.0 0.0002
515.0 0.00019
516.0 0.00018
517.0 0.00019
518.0 0.00021
519.0 0.00022
520.0 0.00023
521.0 0.00028
522.0 0.00027
523.0 0.00028
524.0 0.0003
525.0 0.00033
526.0 0.00036
527.0 0.0004
528.0 0.00043
529.0 0.00042
530.0 0.00042
531.0 0.0005
532.0 0.00058
533.0 0.00064
534.0 0.00071
535.0 0.00079
536.0 0.00087
537.0 0.00096
538.0 0.00104
539.0 0.00115
540.0 0.00134
541.0 0.00146
542.0 0.00167
543.0 0.00189
544.0 0.00212
545.0 0.00241
546.0 0.0027
547.0 0.00303
548.0 0.00335
549.0 0.00388
550.0 0.00442
551.0 0.00573
552.0 0.00531
553.0 0.00596
554.0 0.00661
555.0 0.00749
556.0 0.00836
557.0 0.00955
558.0 0.01075
559.0 0.01931
560.0 0.02784
561.0 0.02576
562.0 0.02368
563.0 0.04039
564.0 0.0571
565.0 0.11081
566.0 0.16462
567.0 0.24803
568.0 0.3304
569.0 0.36801
570.0 0.40715
571.0 0.41438
572.0 0.41838
573.0 0.42087
574.0 0.42271
575.0 0.42406
576.0 0.42675
577.0 0.42892
578.0 0.43111
579.0 0.43298
580.0 0.43554
581.0 0.43914
582.0 0.44276
583.0 0.44427
584.0 0.44578
585.0 0.44594
586.0 0.4461
587.0 0.44421
588.0 0.44097
589.0 0.43767
590.0 0.43845
591.0 0.4464
592.0 0.4433
593.0 0.44782
594.0 0.44822
595.0 0.44593
596.0 0.44915
597.0 0.44819
598.0 0.44998
599.0 0.45187
600.0 0.45375
601.0 0.45575
602.0 0.45713
603.0 0.45857
604.0 0.46001
605.0 0.46095
606.0 0.4612
607.0 0.46147
608.0 0.46175
609.0 0.4624
610.0 0.46376
611.0 0.46833
612.0 0.46706
613.0 0.46941
614.0 0.47176
615.0 0.47234
616.0 0.47362
617.0 0.4744
618.0 0.4759
619.0 0.47645
620.0 0.47727
621.0 0.47717
622.0 0.47707
623.0 0.47832
624.0 0.47884
625.0 0.47906
626.0 0.47927
627.0 0.47849
628.0 0.46404
629.0 0.47479
630.0 0.47735
631.0 0.48029
632.0 0.48177
633.0 0.48462
634.0 0.48602
635.0 0.48784
636.0 0.49039
637.0 0.49211
638.0 0.49457
639.0 0.4955
640.0 0.49717
641.0 0.49855
642.0 0.49993
643.0 0.49957
644.0 0.49994
645.0 0.49977
646.0 0.49741
647.0 0.49647
648.0 0.49552
649.0 0.49797
650.0 0.50188
651.0 0.50606
652.0 0.49922
653.0 0.50393
654.0 0.50499
655.0 0.50546
656.0 0.50741
657.0 0.50866
658.0 0.51065
659.0 0.51207
660.0 0.51276
661.0 0.51569
662.0 0.51481
663.0 0.51336
664.0 0.51265
665.0 0.51296
666.0 0.51401
667.0 0.51589
668.0 0.51703
669.0 0.52045
670.0 0.52127
671.0 0.52118
672.0 0.52184
673.0 0.52159
674.0 0.52208
675.0 0.52151
676.0 0.52169
677.0 0.52164
678.0 0.52232
679.0 0.52258
680.0 0.52358
681.0 0.52544
682.0 0.52563
683.0 0.52599
684.0 0.52561
685.0 0.52545
686.0 0.5238
687.0 0.45398
688.0 0.47555
689.0 0.47003
690.0 0.48065
691.0 0.50044
692.0 0.50573
693.0 0.50839
694.0 0.50735
695.0 0.51148
696.0 0.51339
697.0 0.52101
698.0 0.51902
699.0 0.51422
700.0 0.51624
701.0 0.51714
702.0 0.52102
703.0 0.52574
704.0 0.52522
705.0 0.51969
706.0 0.51788
707.0 0.51369
708.0 0.50875
709.0 0.4756
710.0 0.46584
711.0 0.47325
712.0 0.48072
713.0 0.44097
714.0 0.402
715.0 0.31305
716.0 0.22429
717.0 0.14939
718.0 0.07976
719.0 0.06763
720.0 0.05552
721.0 0.09334
722.0 0.00781
723.0 0.00645
724.0 0.00504
725.0 0.00345
726.0 0.00185
727.0 0.00139
728.0 0.00091
729.0 0.00085
730.0 0.00078
731.0 0.00095
732.0 0.00078
733.0 0.00056
734.0 0.00033
735.0 0.00031
736.0 0.00029
738.0 0.00029
739.0 0.00034
740.0 0.00039
741.0 0.00047
742.0 0.00026
743.0 0.00026
744.0 0.00025
745.0 0.00026
747.0 0.00026
748.0 0.00025
749.0 0.00036
750.0 0.0003
751.0 0.00036
754.0 0.00036
755.0 0.00035
758.0 0.00035
759.0 0.00032
760.0 0.00015
761.0 0.00013
762.0 0.00023
763.0 0.0002
764.0 0.00021
765.0 0.00025
766.0 0.0003
767.0 0.00033
768.0 0.00034
769.0 0.00035
772.0 0.00035
773.0 0.00036
775.0 0.00036
776.0 0.00037
777.0 0.00037
778.0 0.00038
792.0 0.00038
793.0 0.00037
795.0 0.00037
796.0 0.00036
797.0 0.00036
798.0 0.00038
799.0 0.00039
800.0 0.00038
801.0 0.00038
802.0 0.00037
803.0 0.00037
804.0 0.00036
806.0 0.00036
807.0 0.00037
810.0 0.00037
811.0 0.00038
815.0 0.00038
816.0 0.00037
817.0 0.00038
818.0 0.00038
819.0 0.00039
820.0 0.0004
821.0 0.00041
822.0 0.0004
823.0 0.00039
824.0 0.00041
825.0 0.00042
828.0 0.00042
829.0 0.00043
830.0 0.00043
831.0 0.00044
837.0 0.00044
838.0 0.00045
840.0 0.00045
841.0 0.00044
842.0 0.00044
843.0 0.00045
844.0 0.00046
845.0 0.00047
846.0 0.00048
847.0 0.00048
848.0 0.00049
849.0 0.0005
850.0 0.00051
851.0 0.0005
852.0 0.0005
853.0 0.00051
855.0 0.00051
856.0 0.00052
857.0 0.00052
858.0 0.00053
859.0 0.00053
860.0 0.00054
862.0 0.00054
863.0 0.00055
864.0 0.00055
865.0 0.00056
866.0 0.00057
867.0 0.00057
868.0 0.00058
869.0 0.00058
870.0 0.00059
871.0 0.0006
872.0 0.00061
873.0 0.00061
874.0 0.00062
875.0 0.00063
876.0 0.00064
877.0 0.00065
878.0 0.00066
879.0 0.00067
880.0 0.00066
881.0 0.00065
882.0 0.00064
883.0 0.00064
884.0 0.00063
885.0 0.00062
886.0 0.00061
887.0 0.0006
888.0 0.0006
889.0 0.00059
891.0 0.00059
892.0 0.00058
893.0 0.00057
894.0 0.00057
895.0 0.00055
896.0 0.00054
897.0 0.00053
898.0 0.00052
899.0 0.00051
900.0 0.00051
901.0 0.0005
902.0 0.00048
903.0 0.0005
904.0 0.00052
906.0 0.00052
907.0 0.00051
908.0 0.00051
909.0 0.00052
910.0 0.00052
911.0 0.00053
912.0 0.00054
913.0 0.00053
914.0 0.00054
915.0 0.00056
916.0 0.00056
917.0 0.00057
918.0 0.00058
919.0 0.0006
920.0 0.00062
922.0 0.00062
923.0 0.00061
924.0 0.00059
925.0 0.00059
926.0 0.00058
927.0 0.00057
928.0 0.00055
929.0 0.00053
930.0 0.0005
931.0 0.00048
932.0 0.00046
933.0 0.00044
934.0 0.00042
935.0 0.00042
936.0 0.00044
937.0 0.00044
938.0 0.00048
939.0 0.00058
940.0 0.00056
941.0 0.00054
942.0 0.00051
943.0 0.00046
944.0 0.00045
945.0 0.00046
947.0 0.00046
948.0 0.00047
949.0 0.00046
950.0 0.00045
951.0 0.00046
952.0 0.00043
953.0 0.00044
954.0 0.00046
955.0 0.00045
956.0 0.00045
957.0 0.00049
959.0 0.00049
960.0 0.0005
961.0 0.00049
962.0 0.00049
963.0 0.00051
964.0 0.00051
965.0 0.0005
966.0 0.0005
967.0 0.00051
968.0 0.00053
969.0 0.00054
970.0 0.00054
971.0 0.00053
972.0 0.00053
973.0 0.00052
974.0 0.00051
975.0 0.00051
976.0 0.00041
977.0 0.00031
978.0 0.00021
979.0 0.0001
980.0 0.0
981.0 0.00017
982.0 0.00034
983.0 0.00051
986.0 0.00051
987.0 0.0005
988.0 0.0005
989.0 0.00049
990.0 0.00049
991.0 0.00048
992.0 0.00048
993.0 0.00047
994.0 0.00047
995.0 0.00046
996.0 0.00046
997.0 0.00045
998.0 0.00045
999.0 0.00044
1000.0 0.00043
1001.0 0.00042
1002.0 0.00041
1003.0 0.00041
1004.0 0.0004
1005.0 0.00039
1006.0 0.00038
1007.0 0.00038
1008.0 0.00037
1009.0 0.00036
1010.0 0.00035
1011.0 0.00034
1012.0 0.00033
1013.0 0.00033
1014.0 0.00032
1016.0 0.00032
1017.0 0.00031
1018.0 0.00031
1019.0 0.0003
1020.0 0.0003
1021.0 0.00027
1022.0 0.00027
1023.0 0.00026
1028.0 0.00026
1029.0 0.00025
1030.0 0.00023
1031.0 0.00021
1032.0 0.0002
1033.0 0.00019
1034.0 0.00018
1035.0 0.00017
1036.0 0.00016
1037.0 0.00015
1038.0 0.00014
1039.0 0.00013
1040.0 0.00014
1041.0 0.00014
1042.0 0.00013
1043.0 0.00013
1044.0 0.00012
1045.0 0.00012
1046.0 0.00011
1048.0 0.00011
1049.0 0.0001
1052.0 0.0001
1053.0 9e-05
1057.0 9e-05
1058.0 8e-05
1063.0 8e-05
1064.0 7e-05
1068.0 7e-05
1069.0 6e-05
1076.0 6e-05
1077.0 5e-05
1088.0 5e-05
1089.0 4e-05
1097.0 4e-05
1098.0 3e-05
1099.0 0.0
